Data from USB2H144621__17__12-39-33-915.txt Node

Date: Tue Apr 23 12:39:33 CEST 2024
User: experimenter
Spectrometer: USB2+H14462
Trigger mode: 0
Integration Time (sec): 5,000000E-2
Scans to average: 5
Electric dark correction enabled: true
Nonlinearity correction enabled: false
Boxcar width: 0
XAxis mode: Wavelengths
Number of Pixels in Spectrum: 2048
>>>>>Begin Spectral Data<<<<<
171,283	-33,95
171,67	-33,95
172,056	-33,95
172,443	-125,1
172,829	-126,65
173,216	-116,29
173,602	-92,99
173,989	-67,1
174,375	-82,63
174,762	-105,42
175,148	-63,47
175,534	-23,08
175,921	-51,56
176,307	-15,31
176,693	4,37
177,08	16,8
177,466	23,53
177,852	64,44
178,238	81,01
178,624	98,1
179,01	93,96
179,396	119,33
179,782	190,28
180,168	154,03
180,554	184,58
180,94	239,48
181,326	222,39
181,712	280,91
182,098	276,25
182,484	232,75
182,87	292,3
183,255	291,78
183,641	269,51
184,027	335,8
184,413	321,82
184,798	316,12
185,184	332,69
185,57	332,17
185,955	294,89
186,341	330,1
186,726	328,55
187,112	349,26
187,497	329,07
187,883	348,23
188,268	343,05
188,653	338,39
189,039	344,08
189,424	319,23
189,809	340,98
190,195	322,85
190,58	348,23
190,965	347,71
191,35	332,69
191,735	343,05
192,12	337,87
192,505	341,5
192,891	314,57
193,276	320,26
193,661	306,28
194,046	336,83
194,43	292,82
194,815	323,89
195,2	331,14
195,585	308,87
195,97	309,91
196,355	284,53
196,739	328,55
197,124	306,28
197,509	293,85
197,894	294,89
198,278	285,57
198,663	297,48
199,047	290,75
199,432	306,28
199,816	364,28
200,201	333,73
200,585	316,12
200,97	303,69
201,354	297,48
201,739	289,71
202,123	282,98
202,507	303,69
202,892	296,96
203,276	279,35
203,66	320,26
204,044	329,58
204,428	289,71
204,813	334,25
205,197	298
205,581	295,92
205,965	286,6
206,349	300,07
206,733	284,01
207,117	311,46
207,501	285,05
207,885	329,58
208,269	319,75
208,652	321,3
209,036	342,53
209,42	322,85
209,804	334,25
210,187	283,5
210,571	301,1
210,955	328,03
211,338	278,32
211,722	295,41
212,106	325,96
212,489	279,87
212,873	317,16
213,256	311,98
213,64	301,1
214,023	321,3
214,406	356
214,79	327,51
215,173	343,05
215,556	334,76
215,94	282,46
216,323	336,32
216,706	332,17
217,089	328,55
217,472	318,19
217,856	318,19
218,239	307,32
218,622	345,64
219,005	328,55
219,388	330,1
219,771	339,42
220,154	381,37
220,537	335,28
220,919	346,67
221,302	342,53
221,685	346,16
222,068	320,26
222,451	337,35
222,833	343,57
223,216	320,78
223,599	370,5
223,981	344,08
224,364	322,85
224,746	353,41
225,129	362,21
225,512	295,92
225,894	337,35
226,276	358,07
226,659	362,73
227,041	357,03
227,424	349,26
227,806	379,82
228,188	348,23
228,57	334,25
228,953	314,57
229,335	341,5
229,717	313,53
230,099	346,16
230,481	361,17
230,863	366,87
231,245	354,96
231,627	388,62
232,009	331,66
232,391	345,64
232,773	353,41
233,155	392,25
233,537	377,75
233,919	376,19
234,301	336,32
234,682	364,28
235,064	364,28
235,446	365,83
235,828	363,76
236,209	366,35
236,591	391,21
236,972	360,14
237,354	389,14
237,736	362,73
238,117	364,28
238,498	373,08
238,88	375,16
239,261	371,53
239,643	365,83
240,024	392,25
240,405	386,03
240,787	416,07
241,168	402,08
241,549	369,46
241,93	401,57
242,311	386,03
242,692	392,25
243,073	399,5
243,455	417,1
243,836	458,53
244,217	466,3
244,597	472
244,978	481,84
245,359	521,19
245,74	518,09
246,121	601,98
246,502	611,3
246,883	629,94
247,263	617,51
247,644	706,59
248,025	794,1
248,405	1060,8
248,786	1776,48
249,166	3730,36
249,547	7210,89
249,927	12115,53
250,308	18413,21
250,688	24251,54
251,069	28640,39
251,449	31564,74
251,83	33144,73
252,21	34400,02
252,59	35242,05
252,97	36303,66
253,351	37538,76
253,731	38220,26
254,111	39389,07
254,491	40263,73
254,871	40652,64
255,251	41405,09
255,631	41772,25
256,011	42251,79
256,391	42920,86
256,771	42424,75
257,151	42403
257,531	41274,07
257,911	38762,98
258,291	34421,77
258,67	28422,89
259,05	21278
259,43	14977,21
259,81	9485,32
260,189	4974,26
260,569	2125,52
260,948	1251,89
261,328	1006,94
261,707	902,34
262,087	847,44
262,466	775,46
262,846	714,87
263,225	656,35
263,605	680,17
263,984	669,82
264,363	653,76
264,742	615,44
265,122	609,75
265,501	587,48
265,88	532,07
266,259	580,75
266,638	587,48
267,017	555,37
267,396	556,92
267,775	570,91
268,154	543,98
268,533	566,25
268,912	552,78
269,291	509,8
269,67	580,75
270,049	552,78
270,427	520,67
270,806	552,78
271,185	496,85
271,563	502,55
271,942	530
272,321	538,28
272,699	530,51
273,078	552,78
273,456	566,76
273,835	547,09
274,213	552,26
274,592	564,69
274,97	567,8
275,348	571,42
275,727	592,14
276,105	567,8
276,483	560,55
276,861	562,62
277,24	557,44
277,618	584,89
277,996	617,51
278,374	606,12
278,752	636,16
279,13	618,55
279,508	597,84
279,886	603,01
280,264	607,16
280,642	590,59
281,02	615,96
281,397	611,3
281,775	572,98
282,153	617
282,531	612,85
282,908	612,85
283,286	575,05
283,664	567,8
284,041	605,09
284,419	577,64
284,796	579,71
285,174	583,85
285,551	622,69
285,929	586,96
286,306	631,5
286,683	643,41
287,061	626,32
287,438	603,01
287,815	574,53
288,192	643,92
288,569	614,92
288,947	612,34
289,324	605,09
289,701	566,76
290,078	588
290,455	596,8
290,832	607,67
291,209	558,48
291,586	618,55
291,963	664,12
292,339	765,1
292,716	883,18
293,093	989,34
293,47	1129,68
293,846	1222,37
294,223	1250,34
294,6	1207,35
294,976	1300,05
295,353	1266,91
295,729	1290,73
296,106	1271,05
296,482	1295,91
296,859	1343,03
297,235	1307,82
297,612	1346,66
297,988	1413,46
298,364	1437,28
298,741	1419,16
299,117	1424,34
299,493	1418,64
299,869	1375,14
300,245	1373,07
300,621	1364,78
300,997	1283,48
301,373	1173,18
301,749	1019,89
302,125	942,21
302,501	830,87
302,877	758,89
303,253	663,09
303,629	647,03
304,005	657,91
304,38	627,35
304,756	613,37
305,132	626,84
305,508	626,84
305,883	603,53
306,259	601,46
306,634	548,64
307,01	552,26
307,385	607,16
307,761	695,71
308,136	987,26
308,512	1446,09
308,887	2144,16
309,262	2861,4
309,637	3459,52
310,013	3924,56
310,388	4160,7
310,763	4362,15
311,138	4458,99
311,513	4587,94
311,888	4623,67
312,263	4646,97
312,638	4727,76
313,013	4697,72
313,388	4740,19
313,763	4766,08
314,138	4684,78
314,513	4739,15
314,888	4713,26
315,262	4647,49
315,637	4611,24
316,012	4561,52
316,386	4391,67
316,761	4106,84
317,136	3762,99
317,51	3205,25
317,885	2659,95
318,259	2098,07
318,634	1551,21
319,008	1142,62
319,382	817,93
319,757	620,62
320,131	530,51
320,505	469,92
320,88	470,96
321,254	474,07
321,628	451,8
322,002	425,39
322,376	431,6
322,75	444,03
323,124	422,8
323,498	410,89
323,872	404,67
324,246	397,42
324,62	391,21
324,994	440,41
325,368	418,14
325,741	423,83
326,115	401,57
326,489	381,37
326,862	430,05
327,236	382,92
327,61	402,6
327,983	415,03
328,357	393,28
328,73	393,8
329,104	410,89
329,477	411,41
329,851	451,28
330,224	478,21
330,597	499,44
330,97	518,09
331,344	532,07
331,717	525,34
332,09	542,42
332,463	540,87
332,836	513,42
333,209	556,92
333,582	548,12
333,955	526,89
334,328	543,46
334,701	511,35
335,074	563,14
335,447	551,75
335,82	509,28
336,193	519,12
336,565	560,55
336,938	522,23
337,311	526,37
337,683	524,82
338,056	523,26
338,429	539,32
338,801	528,44
339,174	469,92
339,546	443,51
339,918	429,53
340,291	450,25
340,663	419,17
341,036	436,26
341,408	421,76
341,78	425,39
342,152	426,42
342,524	436,78
342,897	422,8
343,269	435,75
343,641	426,94
344,013	432,64
344,385	409,85
344,757	450,25
345,129	423,32
345,501	417,62
345,872	406,75
346,244	398,46
346,616	425,39
346,988	397,94
347,359	447,14
347,731	452,32
348,103	424,35
348,474	447,66
348,846	446,62
349,217	459,05
349,589	440,92
349,96	484,42
350,332	470,44
350,703	486,5
351,074	432,12
351,446	492,19
351,817	470,44
352,188	482,87
352,559	465,78
352,931	499,44
353,302	498,92
353,673	482,87
354,044	535,69
354,415	517,57
354,786	553,82
355,157	523,26
355,528	557,44
355,898	548,64
356,269	601,98
356,64	593,17
357,011	563,66
357,382	562,1
357,752	600,94
358,123	624,25
358,493	680,17
358,864	673,44
359,235	685,87
359,605	761,48
359,976	966,55
360,346	1453,34
360,716	2210,45
361,087	3202,66
361,457	4180,9
361,827	5103,72
362,198	5869,64
362,568	6340,37
362,938	6597,74
363,308	6810,07
363,678	6994,42
364,048	7069,51
364,418	7154,96
364,788	7153,41
365,158	7232,12
365,528	7142,01
365,898	7215,55
366,268	7202,6
366,637	7209,34
367,007	7176,71
367,377	7153,92
367,747	7178,26
368,116	7097,48
368,486	6957,14
368,855	6570,82
369,225	6012,56
369,595	5340,9
369,964	4650,08
370,333	3904,88
370,703	3225,45
371,072	2751,09
371,441	2276,21
371,811	1914,75
372,18	1687,93
372,549	1488,55
372,918	1468,87
373,287	1390,68
373,656	1426,93
374,026	1454,37
374,395	1454,89
374,764	1405,69
375,132	1504,09
375,501	1505,64
375,87	1535,16
376,239	1533,61
376,608	1546,03
376,977	1603,52
377,345	1646,5
377,714	1646,5
378,083	1677,05
378,451	1722,62
378,82	1744,37
379,188	1734,53
379,557	1723,14
379,925	1747,48
380,294	1759,91
380,662	1839,14
381,03	1786,84
381,399	1859,86
381,767	1868,14
382,135	1855,71
382,503	1922,52
382,871	1945,82
383,24	1876,95
383,608	1947,37
383,976	2014,7
384,344	1956,18
384,712	2013,14
385,079	2065,45
385,447	2039,55
385,815	2029,2
386,183	2078,91
386,551	2112,05
386,918	2090,3
387,286	2110,5
387,654	2082,54
388,021	2087,71
388,389	2090,82
388,757	2122,93
389,124	2179,38
389,491	2147,27
389,859	2156,07
390,226	2123,96
390,594	2121,38
390,961	2172,13
391,328	2244,11
391,695	2191,29
392,063	2217,18
392,43	2241
392,797	2222,88
393,164	2222,36
393,531	2260,16
393,898	2237,38
394,265	2212,52
394,632	2204,75
394,999	2214,07
395,366	2274,66
395,732	2247,21
396,099	2263,27
396,466	2273,11
396,833	2251,88
397,199	2268,45
397,566	2260,16
397,932	2261,71
398,299	2218,73
398,665	2325,93
399,032	2379,27
399,398	2496,82
399,765	2927,16
400,131	3912,65
400,497	5080,94
400,864	6413,9
401,23	7544,91
401,596	8337,75
401,962	8769,64
402,328	9183,41
402,694	9295,27
403,06	9492,57
403,426	9601,32
403,792	9716,29
404,158	9732,34
404,524	9699,72
404,89	9688,32
405,256	9740,11
405,622	9883,56
405,987	9673,82
406,353	9745,29
406,719	9410,75
407,084	9582,16
407,45	9379,16
407,815	9183,93
408,181	8758,25
408,546	8362,61
408,912	7344,5
409,277	6357,46
409,642	5433,08
410,008	4701,86
410,373	4054,02
410,738	3614,88
411,103	3227,52
411,468	2864,5
411,834	2599,36
412,199	2413,97
412,564	2186,11
412,929	2167,46
413,294	2152,96
413,658	2066,48
414,023	2025,57
414,388	2016,25
414,753	1985,18
415,118	1965,5
415,482	1943,75
415,847	1911,12
416,212	1925,11
416,576	1900,25
416,941	1869,7
417,305	1798,23
417,67	1842,25
418,034	1920,45
418,399	1823,09
418,763	1798,23
419,127	1827,23
419,491	1807,55
419,856	1755,77
420,22	1746,96
420,584	1731,43
420,948	1755,25
421,312	1769,23
421,676	1745,93
422,04	1719,52
422,404	1732,46
422,768	1671,87
423,132	1687,93
423,496	1614,39
423,86	1669,8
424,223	1673,95
424,587	1638,21
424,951	1575,03
425,314	1602,48
425,678	1566,75
426,041	1585,39
426,405	1594,2
426,768	1547,59
427,132	1548,11
427,495	1557,43
427,859	1575,55
428,222	1558,46
428,585	1562,61
428,948	1576,07
429,312	1565,2
429,675	1564,68
430,038	1648,05
430,401	1851,05
430,764	2689,98
431,127	4953,03
431,49	8668,66
431,853	12711,06
432,216	16529,75
432,579	19459,8
432,941	21686,59
433,304	23004,54
433,667	23779,77
434,029	24354,6
434,392	24464,9
434,755	24637,35
435,117	24788,56
435,48	24466,45
435,842	24515,13
436,205	24828,95
436,567	24470,08
436,929	24198,2
437,292	24051,13
437,654	24228,24
438,016	24100,85
438,378	23482
438,74	23180,09
439,103	22708,32
439,465	21523,46
439,827	19037,74
440,189	15663,38
440,551	12351,15
440,913	9704,9
441,274	7781,05
441,636	6164,3
441,998	4867,06
442,36	3741,24
442,721	2855,18
443,083	2122,41
443,445	1539,3
443,806	1275,19
444,168	1180,94
444,529	1105,34
444,891	1113,1
445,252	1135,89
445,614	1106,89
445,975	1107,93
446,336	1076,85
446,697	1096,53
447,059	1054,59
447,42	1052,52
447,781	1023
448,142	1011,6
448,503	1051,48
448,864	990,37
449,225	1004,35
449,586	982,09
449,947	984,16
450,308	987,26
450,668	979,5
451,029	946,35
451,39	942,73
451,751	967,59
452,111	941,69
452,472	944,28
452,832	939,1
453,193	939,1
453,553	914,76
453,914	923,05
454,274	876,44
454,634	915,28
454,995	909,07
455,355	884,73
455,715	890,43
456,075	878,51
456,436	894,57
456,796	899,75
457,156	848,48
457,516	861,43
457,876	821,03
458,236	855,21
458,596	843,3
458,955	818,96
459,315	860,39
459,675	825,69
460,035	846,41
460,394	817,93
460,754	776,5
461,114	828,8
461,473	825,69
461,833	784,26
462,192	832,94
462,552	840,71
462,911	765,1
463,27	816,37
463,63	757,34
463,989	794,62
464,348	801,87
464,707	762
465,066	767,69
465,425	770,28
465,785	796,69
466,144	767,69
466,503	781,68
466,861	767,69
467,22	779,6
467,579	805,5
467,938	741,28
468,297	753,19
468,655	771,32
469,014	782,71
469,373	777,01
469,731	772,87
470,09	778,05
470,448	735,07
470,807	768,73
471,165	736,1
471,524	768,73
471,882	812,23
472,24	757,85
472,599	810,16
472,957	741,8
473,315	754,23
473,673	786,34
474,031	739,21
474,389	781,16
474,747	782,19
475,105	777,53
475,463	752,16
475,821	794,62
476,179	766,14
476,537	770,28
476,894	763,55
477,252	787,37
477,61	786,34
477,967	806,01
478,325	749,57
478,683	797,73
479,04	752,16
479,398	766,14
479,755	771,84
480,112	773,91
480,47	778,05
480,827	795,14
481,184	775,46
481,541	762
481,899	751,12
482,256	816,89
482,613	788,93
482,97	769,76
483,327	775,46
483,684	752,68
484,041	777,53
484,397	761,48
484,754	794,1
485,111	767,69
485,468	781,68
485,824	776,5
486,181	789,96
486,538	784,78
486,894	822,07
487,251	785,82
487,607	799,28
487,964	820
488,32	793,07
488,676	815,34
489,033	814,82
489,389	797,73
489,745	795,14
490,101	803,94
490,457	797,21
490,814	830,87
491,17	811,19
491,526	814,82
491,882	808,09
492,237	807,57
492,593	822,59
492,949	817,41
493,305	813,26
493,661	793,07
494,016	814,3
494,372	789,96
494,728	831,91
495,083	799,8
495,439	764,59
495,794	782,19
496,15	778,05
496,505	729,37
496,86	760,96
497,216	764,07
497,571	738,18
497,926	740,25
498,281	714,87
498,637	726,78
498,992	726,26
499,347	711,76
499,702	743,87
500,057	701,92
500,412	753,71
500,766	669,82
501,121	747,5
501,476	712,8
501,831	704
502,185	721,6
502,54	738,18
502,895	717,98
503,249	698,3
503,604	700,89
503,958	659,46
504,313	702,96
504,667	701,92
505,022	663,6
505,376	697,26
505,73	704,51
506,084	717,46
506,438	699,34
506,793	665,16
507,147	652,21
507,501	709,17
507,855	690,53
508,209	700,37
508,563	710,73
508,917	665,16
509,27	705,55
509,624	694,16
509,978	669,3
510,332	704,51
510,685	704
511,039	712,8
511,392	686,91
511,746	675
512,099	706,59
512,453	665,16
512,806	705,55
513,16	695,71
513,513	721,6
513,866	699,85
514,219	706,59
514,572	733,51
514,926	708,66
515,279	684,32
515,632	702,44
515,985	721,6
516,338	681,73
516,69	737,66
517,043	747,5
517,396	695,71
517,749	706,07
518,102	690,53
518,454	695,71
518,807	676,03
519,16	724,19
519,512	692,09
519,865	694,67
520,217	685,87
520,569	696,23
520,922	699,85
521,274	690,01
521,626	693,64
521,979	677,59
522,331	682,76
522,683	701,41
523,035	670,34
523,387	702,44
523,739	691,57
524,091	693,64
524,443	709,69
524,795	694,16
525,147	720,57
525,499	681,21
525,85	695,19
526,202	711,76
526,554	679,14
526,905	676,03
527,257	683,28
527,608	701,41
527,96	696,23
528,311	708,14
528,663	712,8
529,014	651,69
529,365	698,3
529,717	706,07
530,068	688,98
530,419	677,59
530,77	689,5
531,121	697,26
531,472	683,8
531,823	697,26
532,174	695,19
532,525	722,12
532,876	662,57
533,227	689,5
533,577	702,96
533,928	715,91
534,279	648,59
534,629	651,69
534,98	696,23
535,33	703,48
535,681	713,84
536,031	674,48
536,382	693,64
536,732	743,35
537,082	671,37
537,433	708,14
537,783	714,87
538,133	708,14
538,483	752,16
538,833	772,35
539,183	821,55
539,533	807,05
539,883	855,73
540,233	891,98
540,583	966,03
540,933	1337,86
541,282	4294,83
541,632	12521,53
541,982	22108,13
542,331	30636,22
542,681	38069,56
543,031	43990,24
543,38	48600,73
543,729	52244,9
544,079	54742,54
544,428	56240,7
544,778	56949,65
545,127	56855,4
545,476	57674,65
545,825	57301,28
546,174	57706,76
546,523	57015,94
546,872	56875,6
547,221	56605,79
547,57	56339,61
547,919	55874,58
548,268	55400,73
548,617	54915,5
548,966	53777,25
549,314	53222,1
549,663	51811,97
550,012	46963,27
550,36	38106,33
550,709	29872,38
551,057	23418,31
551,406	18804,71
551,754	15156,91
552,102	12219,1
552,451	9783,61
552,799	7756,19
553,147	5762,44
553,495	4279,29
553,843	2999,66
554,191	1971,71
554,539	1260,69
554,887	918,39
555,235	841,23
555,583	792,55
555,931	756,3
556,279	733,51
556,626	743,87
556,974	768,73
557,322	711,76
557,669	726,78
558,017	711,76
558,364	721,09
558,712	752,16
559,059	715,39
559,407	730,41
559,754	713,32
560,101	705,55
560,449	731,44
560,796	683,8
561,143	669,3
561,49	694,67
561,837	720,05
562,184	707,62
562,531	704
562,878	682,25
563,225	687,42
563,572	687,42
563,918	656,87
564,265	699,34
564,612	687,42
564,958	684,32
565,305	713,32
565,651	714,35
565,998	729,37
566,344	725,23
566,691	678,1
567,037	670,85
567,383	679,66
567,73	712,8
568,076	706,59
568,422	683,8
568,768	675
569,114	699,85
569,46	679,66
569,806	695,19
570,152	685,35
570,498	718,5
570,844	696,23
571,19	710,21
571,535	758,37
571,881	744,39
572,227	1046,3
572,572	1910,09
572,918	2876,41
573,263	3704,99
573,609	4437,76
573,954	5046,24
574,3	5735,51
574,645	7067,96
574,99	8657,27
575,335	9778,43
575,68	10718,86
576,026	11554,17
576,371	12107,24
576,716	12433,49
577,061	12926,49
577,406	13021,26
577,75	13266,21
578,095	13171,44
578,44	13158,49
578,785	13179,21
579,13	13069,42
579,474	12932,71
579,819	12898,01
580,163	12847,26
580,508	12600,76
580,852	12104,13
581,197	11352,2
581,541	10208,77
581,885	9430,95
582,23	8795,02
582,574	8398,86
582,918	7600,84
583,262	6529,39
583,606	5261,67
583,95	4235,79
584,294	3423,79
584,638	2794,59
584,982	2345,09
585,326	1946,34
585,67	1632
586,014	1349,77
586,357	1160,23
586,701	981,05
587,044	855,73
587,388	752,16
587,732	700,37
588,075	644,96
588,418	619,07
588,762	645,48
589,105	638,23
589,448	626,84
589,792	614,92
590,135	605,09
590,478	629,42
590,821	608,71
591,164	614,41
591,507	615,96
591,85	587,48
592,193	608,19
592,536	647,03
592,878	646,51
593,221	635,12
593,564	641,85
593,907	634,09
594,249	598,87
594,592	635,64
594,934	621,14
595,277	607,67
595,619	574,01
595,961	589,03
596,304	603,53
596,646	596,28
596,988	648,59
597,33	585,92
597,672	596,28
598,014	630,46
598,357	626,32
598,698	600,94
599,04	571,42
599,382	599,91
599,724	582,82
600,066	564,17
600,408	620,62
600,749	597,84
601,091	605,6
601,432	564,69
601,774	602,5
602,116	553,3
602,457	590,59
602,798	573,5
603,14	547,09
603,481	596,8
603,822	581,78
604,163	595,76
604,505	562,62
604,846	558,48
605,187	583,34
605,528	584,89
605,869	612,85
606,21	567,8
606,55	604,57
606,891	569,87
607,232	558,48
607,573	566,25
607,913	586,44
608,254	580,23
608,594	553,82
608,935	575,05
609,275	567,28
609,616	573,5
609,956	569,87
610,297	568,84
610,637	514,46
610,977	555,89
611,317	553,82
611,657	598,87
611,997	576,6
612,337	549,16
612,677	574,01
613,017	560,55
613,357	572,98
613,697	548,64
614,037	566,25
614,377	552,78
614,716	553,3
615,056	547,09
615,395	532,07
615,735	535,69
616,074	540,35
616,414	532,07
616,753	538,28
617,093	562,1
617,432	554,34
617,771	542,94
618,11	543,98
618,449	526,37
618,789	497,37
619,128	546,05
619,467	565,73
619,805	536,73
620,144	522,75
620,483	523,26
620,822	531,55
621,161	508,25
621,499	503,59
621,838	529,48
622,177	516,53
622,515	514,98
622,854	521,71
623,192	531,03
623,531	556,92
623,869	514,98
624,207	521,19
624,545	530
624,884	494,26
625,222	489,6
625,56	524,3
625,898	499,96
626,236	527,41
626,574	513,94
626,912	478,73
627,25	488,05
627,587	514,98
627,925	504,1
628,263	514,98
628,6	483,91
628,938	515,5
629,276	523,26
629,613	538,28
629,951	513,94
630,288	484,94
630,625	491,67
630,963	494,78
631,3	482,87
631,637	511,87
631,974	493,75
632,311	504,62
632,648	501,51
632,985	507,73
633,322	504,62
633,659	492,19
633,996	519,64
634,333	497,89
634,67	534,66
635,006	487,53
635,343	473,03
635,68	514,98
636,016	478,73
636,353	501
636,689	464,75
637,025	503,59
637,362	473,03
637,698	500,48
638,034	482,35
638,371	509,8
638,707	469,41
639,043	470,44
639,379	511,35
639,715	487,53
640,051	501,51
640,387	465,78
640,723	471,48
641,058	497,37
641,394	475,1
641,73	446,62
642,065	495,82
642,401	472
642,736	462,16
643,072	462,67
643,407	437,82
643,743	465,26
644,078	480,28
644,413	480,8
644,749	511,87
645,084	484,42
645,419	478,21
645,754	487,53
646,089	479,76
646,424	481,84
646,759	490,12
647,094	443,51
647,429	459,05
647,764	470,96
648,098	470,44
648,433	476,66
648,768	466,3
649,102	459,05
649,437	447,66
649,771	451,8
650,106	471,48
650,44	444,03
650,774	447,66
651,108	453,87
651,443	455,42
651,777	477,69
652,111	462,16
652,445	495,82
652,779	436,26
653,113	420,21
653,447	447,66
653,781	423,83
654,115	460,6
654,448	464,75
654,782	437,3
655,116	468,89
655,449	463,71
655,783	437,82
656,116	433,16
656,45	427,98
656,783	436,78
657,117	448,17
657,45	406,23
657,783	440,41
658,116	423,83
658,449	442,48
658,783	452,83
659,116	457,5
659,449	446,62
659,782	454,39
660,114	437,82
660,447	439,89
660,78	446,1
661,113	447,14
661,445	423,83
661,778	447,14
662,111	451,28
662,443	443
662,776	457,5
663,108	426,94
663,44	455,94
663,773	431,6
664,105	447,66
664,437	415,03
664,769	423,83
665,102	453,87
665,434	446,62
665,766	408,3
666,098	429,01
666,429	425,39
666,761	416,58
667,093	422,8
667,425	470,44
667,757	424,87
668,088	466,3
668,42	449,73
668,751	440,41
669,083	443,51
669,414	409,85
669,746	423,32
670,077	403,12
670,408	412,44
670,739	443
671,071	451,28
671,402	411,92
671,733	430,05
672,064	409,85
672,395	409,33
672,726	417,62
673,057	417,62
673,387	439,37
673,718	454,91
674,049	441,44
674,38	440,41
674,71	454,39
675,041	389,14
675,371	397,94
675,702	409,85
676,032	405,19
676,362	405,71
676,693	426,94
677,023	421,76
677,353	434,71
677,683	380,33
678,013	354,44
678,343	410,37
678,673	409,33
679,003	386,03
679,333	437,3
679,663	398,98
679,993	411,41
680,322	409,85
680,652	399,5
680,982	417,62
681,311	394,83
681,641	385,51
681,97	388,1
682,3	348,23
682,629	407,78
682,958	419,69
683,287	396,39
683,617	411,41
683,946	433,67
684,275	410,37
684,604	390,69
684,933	398,98
685,262	423,83
685,591	405,71
685,919	384,48
686,248	405,19
686,577	402,6
686,906	410,89
687,234	424,87
687,563	433,16
687,891	404,67
688,22	403,12
688,548	399,5
688,876	424,87
689,205	414,51
689,533	398,46
689,861	443
690,189	416,07
690,517	422,8
690,845	399,5
691,173	402,6
691,501	432,64
691,829	430,57
692,157	457,5
692,485	464,75
692,812	464,23
693,14	530,51
693,468	546,57
693,795	509,8
694,123	530,51
694,45	531,55
694,778	551,75
695,105	528,44
695,432	548,12
695,759	546,57
696,087	528,96
696,414	536,21
696,741	539,84
697,068	551,23
697,395	541,39
697,722	534,14
698,048	512,39
698,375	558,48
698,702	549,16
699,029	557,96
699,355	510,32
699,682	516,53
700,008	522,23
700,335	533,1
700,661	494,26
700,988	452,32
701,314	447,14
701,64	444,55
701,966	413,48
702,293	418,66
702,619	405,71
702,945	395,35
703,271	376,71
703,597	421,76
703,923	404,16
704,248	434,19
704,574	408,82
704,9	369,46
705,226	417,1
705,551	388,1
705,877	393,8
706,202	445,58
706,528	375,16
706,853	406,75
707,179	411,92
707,504	399,5
707,829	401,57
708,154	425,39
708,479	417,62
708,804	418,66
709,129	397,42
709,454	429,53
709,779	392,76
710,104	366,35
710,429	400,01
710,754	378,78
711,078	395,35
711,403	343,05
711,728	370,5
712,052	403,64
712,377	389,66
712,701	383,96
713,026	368,42
713,35	370,5
713,674	337,87
713,998	366,87
714,322	381,89
714,647	352,89
714,971	400,01
715,295	361,69
715,619	365,32
715,942	382,92
716,266	369,98
716,59	382,41
716,914	388,1
717,237	382,92
717,561	392,76
717,885	359,1
718,208	404,16
718,532	343,57
718,855	342,53
719,178	388,62
719,502	354,44
719,825	351,33
720,148	387,07
720,471	352,89
720,794	408,82
721,117	377,23
721,44	380,33
721,763	336,83
722,086	377,23
722,409	361,69
722,731	371,53
723,054	367,39
723,377	387,07
723,699	372,05
724,022	359,62
724,344	360,66
724,667	370,5
724,989	400,53
725,311	372,57
725,634	401,57
725,956	387,07
726,278	389,14
726,6	366,87
726,922	423,83
727,244	421,76
727,566	386,03
727,888	394,32
728,21	372,05
728,531	371,53
728,853	383,96
729,175	387,07
729,496	412,44
729,818	381,37
730,139	389,14
730,461	383,96
730,782	393,28
731,103	391,21
731,425	357,03
731,746	393,28
732,067	366,35
732,388	365,83
732,709	334,76
733,03	387,58
733,351	367,91
733,672	348,75
733,993	363,76
734,313	364,28
734,634	378,78
734,955	381,89
735,275	382,92
735,596	382,41
735,916	381,37
736,237	420,73
736,557	387,58
736,877	407,26
737,198	414,51
737,518	429,53
737,838	384,48
738,158	404,16
738,478	432,64
738,798	402,08
739,118	383,44
739,438	382,92
739,758	399,5
740,078	408,3
740,397	389,14
740,717	405,19
741,036	418,14
741,356	396,39
741,675	408,3
741,995	380,33
742,314	394,83
742,634	387,58
742,953	361,69
743,272	351,33
743,591	335,28
743,91	326,48
744,229	352,37
744,548	347,71
744,867	324,92
745,186	336,32
745,505	337,35
745,824	358,07
746,142	379,3
746,461	390,17
746,78	412,96
747,098	438,33
747,417	443
747,735	456,98
748,053	474,07
748,372	478,21
748,69	467,85
749,008	484,42
749,326	481,84
749,644	519,12
749,962	501
750,28	481,84
750,598	536,21
750,916	505,66
751,234	535,17
751,552	513,42
751,869	493,75
752,187	532,07
752,504	510,32
752,822	493,23
753,139	505,14
753,457	494,78
753,774	524,3
754,091	470,44
754,409	506,69
754,726	451,28
755,043	440,41
755,36	422,8
755,677	394,32
755,994	394,83
756,311	393,8
756,628	360,66
756,944	345,12
757,261	339,94
757,578	364,28
757,894	369,98
758,211	336,32
758,528	366,87
758,844	318,71
759,16	372,57
759,477	446,62
759,793	458,53
760,109	497,89
760,425	515,5
760,741	541,39
761,057	562,62
761,373	572,98
761,689	609,23
762,005	639,26
762,321	617,51
762,637	658,42
762,953	632,53
763,268	626,32
763,584	628,91
763,899	657,39
764,215	678,62
764,53	658,42
764,846	655,32
765,161	643,92
765,476	617,51
765,791	637,71
766,106	606,64
766,421	627,35
766,736	605,09
767,051	607,16
767,366	553,82
767,681	598,35
767,996	528,44
768,311	468,37
768,625	468,37
768,94	423,83
769,255	476,66
769,569	486,5
769,883	445,07
770,198	479,76
770,512	489,6
770,826	487,53
771,141	458,01
771,455	466,82
771,769	498,41
772,083	513,94
772,397	507,73
772,711	517,57
773,025	520,67
773,339	514,46
773,652	535,69
773,966	498,41
774,28	512,91
774,593	509,28
774,907	511,87
775,22	472
775,534	452,83
775,847	469,41
776,16	465,26
776,474	462,16
776,787	423,83
777,1	362,73
777,413	364,28
777,726	363,76
778,039	331,14
778,352	329,07
778,665	353,92
778,977	360,14
779,29	331,66
779,603	331,66
779,915	337,35
780,228	352,37
780,54	310,42
780,853	372,57
781,165	323,89
781,477	329,58
781,79	335,28
782,102	327
782,414	322,85
782,726	343,57
783,038	302,14
783,35	357,55
783,662	325,44
783,974	339,94
784,286	350,82
784,597	358,07
784,909	352,89
785,221	336,83
785,532	328,55
785,844	338,91
786,155	348,75
786,467	366,87
786,778	332,69
787,089	322,33
787,4	330,1
787,712	314,57
788,023	343,05
788,334	326,48
788,645	364,8
788,956	312,5
789,266	335,8
789,577	292,3
789,888	324,92
790,199	355,48
790,509	338,91
790,82	371,53
791,13	327,51
791,441	370,5
791,751	352,37
792,061	347,19
792,372	343,57
792,682	365,32
792,992	391,21
793,302	379,82
793,612	384,48
793,922	381,89
794,232	371,01
794,542	389,66
794,852	381,89
795,162	359,62
795,471	368,42
795,781	374,64
796,09	382,92
796,4	383,44
796,709	400,01
797,019	398,98
797,328	409,85
797,637	431,6
797,947	423,32
798,256	388,62
798,565	401,57
798,874	434,71
799,183	399,5
799,492	407,78
799,801	395,35
800,109	407,26
800,418	381,37
800,727	406,75
801,036	390,17
801,344	422,28
801,653	408,3
801,961	401,57
802,269	407,78
802,578	413,48
802,886	389,14
803,194	395,87
803,502	422,8
803,811	413,48
804,119	404,16
804,427	392,76
804,734	360,14
805,042	366,87
805,35	378,26
805,658	371,01
805,966	362,21
806,273	362,21
806,581	365,32
806,888	348,23
807,196	381,37
807,503	375,67
807,81	388,62
808,118	423,83
808,425	400,53
808,732	402,08
809,039	465,78
809,346	435,23
809,653	444,03
809,96	446,1
810,267	423,83
810,574	435,75
810,88	432,12
811,187	482,87
811,494	450,25
811,8	493,23
812,107	462,67
812,413	493,23
812,719	452,83
813,026	463,71
813,332	446,62
813,638	448,69
813,944	433,16
814,25	464,23
814,556	439,37
814,862	423,32
815,168	433,16
815,474	401,05
815,78	380,33
816,086	384,48
816,391	371,01
816,697	363,76
817,002	328,55
817,308	349,78
817,613	345,64
817,919	305,25
818,224	340,46
818,529	366,87
818,834	343,57
819,139	333,21
819,444	335,8
819,749	337,87
820,054	318,71
820,359	326,48
820,664	305,25
820,969	324,92
821,274	320,78
821,578	334,76
821,883	327
822,187	340,46
822,492	347,19
822,796	352,89
823,1	354,44
823,405	366,87
823,709	390,17
824,013	367,39
824,317	374,64
824,621	400,01
824,925	397,42
825,229	388,62
825,533	398,46
825,837	366,35
826,14	410,89
826,444	365,32
826,748	404,16
827,051	382,41
827,355	407,26
827,658	417,62
827,961	394,83
828,265	426,94
828,568	409,33
828,871	394,32
829,174	383,44
829,477	408,3
829,78	400,01
830,083	353,92
830,386	353,41
830,689	382,41
830,992	348,75
831,294	321,82
831,597	345,12
831,9	335,8
832,202	349,26
832,505	312,5
832,807	338,39
833,109	308,35
833,412	326,48
833,714	324,92
834,016	318,19
834,318	319,75
834,62	317,16
834,922	315,6
835,224	340,98
835,526	329,07
835,828	342,53
836,129	326,48
836,431	325,44
836,733	347,19
837,034	311,46
837,336	341,5
837,637	325,96
837,938	372,57
838,24	345,64
838,541	344,08
838,842	352,89
839,143	361,17
839,444	322,33
839,745	352,37
840,046	403,12
840,347	393,28
840,648	391,21
840,949	400,53
841,249	374,12
841,55	394,32
841,85	387,58
842,151	404,16
842,451	384,48
842,752	391,73
843,052	392,25
843,352	382,41
843,653	386,03
843,953	393,28
844,253	381,89
844,553	378,26
844,853	394,32
845,153	349,26
845,452	371,01
845,752	334,25
846,052	352,89
846,352	348,23
846,651	340,46
846,951	335,28
847,25	358,07
847,549	340,46
847,849	330,62
848,148	316,64
848,447	331,14
848,746	356,51
849,045	325,44
849,345	340,46
849,643	310,42
849,942	479,25
850,241	348,75
850,54	316,12
850,839	333,73
851,137	308,35
851,436	327
851,734	321,3
852,033	328,03
852,331	331,14
852,63	313,01
852,928	337,87
853,226	358,07
853,524	311,98
853,822	325,96
854,12	331,14
854,418	317,16
854,716	336,32
855,014	335,8
855,312	313,01
855,61	285,57
855,907	323,89
856,205	291,26
856,502	312,5
856,8	336,83
857,097	324,41
857,395	337,87
857,692	346,67
857,989	338,91
858,286	324,41
858,583	327,51
858,88	308,35
859,177	336,83
859,474	353,92
859,771	336,32
860,068	331,66
860,365	307,83
860,661	335,8
860,958	333,73
861,255	329,07
861,551	299,55
861,847	339,42
862,144	324,41
862,44	310,94
862,736	332,69
863,032	341,5
863,329	312,5
863,625	325,96
863,921	323,89
864,216	299,03
864,512	284,53
864,808	332,17
865,104	317,16
865,399	317,16
865,695	311,98
865,991	333,21
866,286	314,05
866,581	347,71
866,877	352,37
867,172	322,33
867,467	315,08
867,762	320,78
868,058	282,46
868,353	311,98
868,648	325,96
868,942	344,08
869,237	346,67
869,532	333,21
869,827	318,19
870,121	312,5
870,416	309,91
870,711	307,83
871,005	341,5
871,299	327
871,594	342,01
871,888	330,1
872,182	321,3
872,476	292,82
872,771	301,1
873,065	357,03
873,359	318,19
873,652	337,35
873,946	321,82
874,24	334,76
874,534	310,94
874,827	319,23
875,121	317,16
875,414	331,66
875,708	291,78
876,001	320,26
876,295	309,39
876,588	331,14
876,881	304,73
877,174	322,85
877,467	316,64
877,76	313,53
878,053	292,82
878,346	324,41
878,639	324,41
878,932	324,41
