Data from USB2H144621__15__12-29-36-979.txt Node

Date: Tue Apr 23 12:29:36 CEST 2024
User: experimenter
Spectrometer: USB2+H14462
Trigger mode: 0
Integration Time (sec): 5,000000E-2
Scans to average: 5
Electric dark correction enabled: true
Nonlinearity correction enabled: false
Boxcar width: 0
XAxis mode: Wavelengths
Number of Pixels in Spectrum: 2048
>>>>>Begin Spectral Data<<<<<
171,283	-59,49
171,67	-59,49
172,056	-59,49
172,443	-120,08
172,829	-101,95
173,216	-97,29
173,602	-108,17
173,989	-106,1
174,375	-95,74
174,762	-113,35
175,148	-84,86
175,534	-40,33
175,921	-26,86
176,307	-14,95
176,693	-2,01
177,08	13,01
177,466	51,85
177,852	89,14
178,238	77,23
178,624	124,87
179,01	96,39
179,396	139,89
179,782	142,99
180,168	141,96
180,554	211,35
180,94	233,1
181,326	232,58
181,712	209,8
182,098	256,4
182,484	278,67
182,87	286,96
183,255	291,62
183,641	265,21
184,027	290,58
184,413	283,33
184,798	277,64
185,184	325,8
185,57	306,64
185,955	316,99
186,341	365,67
186,726	326,83
187,112	323,73
187,497	292,14
187,883	315,44
188,268	343,4
188,653	318,03
189,039	320,1
189,424	334,6
189,809	329,94
190,195	317,51
190,58	332,01
190,965	313,37
191,35	309,74
191,735	308,71
192,12	300,94
192,505	318,03
192,891	303,01
193,276	326,83
193,661	307,15
194,046	309,23
194,43	295,24
194,815	286,44
195,2	303,01
195,585	282,82
195,97	287,48
196,355	263,14
196,739	320,62
197,124	290,58
197,509	298,35
197,894	294,21
198,278	278,67
198,663	321,65
199,047	275,57
199,432	278,15
199,816	261,58
200,201	290,07
200,585	302,49
200,97	303,01
201,354	284,89
201,739	299,9
202,123	284,89
202,507	306,12
202,892	279,19
203,276	269,87
203,66	288,51
204,044	303,01
204,428	282,82
204,813	308,71
205,197	299,39
205,581	302,49
205,965	306,12
206,349	258,99
206,733	299,39
207,117	304,05
207,501	325,28
207,885	304,05
208,269	319,07
208,652	308,19
209,036	301,98
209,42	325,28
209,804	321,14
210,187	322,69
210,571	294,21
210,955	294,73
211,338	308,19
211,722	292,65
212,106	313,89
212,489	316,48
212,873	316,48
213,256	316,99
213,64	314,4
214,023	309,74
214,406	292,14
214,79	297,32
215,173	288,51
215,556	292,65
215,94	310,78
216,323	318,03
216,706	314,92
217,089	327,87
217,472	300,94
217,856	337,71
218,239	333,05
218,622	290,58
219,005	308,19
219,388	323,73
219,771	321,14
220,154	306,12
220,537	322,69
220,919	331,49
221,302	339,78
221,685	325,28
222,068	300,94
222,451	332,53
222,833	332,01
223,216	342,89
223,599	335,12
223,981	347,03
224,364	316,99
224,746	314,4
225,129	330,46
225,512	333,57
225,894	348,58
226,276	337,71
226,659	313,89
227,041	343,92
227,424	299,9
227,806	343,4
228,188	315,96
228,57	318,03
228,953	330,46
229,335	332,53
229,717	312,33
230,099	318,55
230,481	353,76
230,863	347,55
231,245	348,07
231,627	342,37
232,009	341,85
232,391	339,78
232,773	359,46
233,155	359,46
233,537	340,82
233,919	362,05
234,301	355,32
234,682	355,83
235,064	347,55
235,446	367,23
235,828	354,28
236,209	354,28
236,591	363,6
236,972	344,96
237,354	357,39
237,736	373,44
238,117	360,49
238,498	383,28
238,88	351,69
239,261	351,17
239,643	373,96
240,024	372,41
240,405	360,49
240,787	393,12
241,168	400,37
241,549	379,66
241,93	371,37
242,311	381,73
242,692	415,91
243,073	385,35
243,455	394,67
243,836	452,67
244,217	434,55
244,597	458,37
244,978	520,51
245,359	482,71
245,74	515,33
246,121	544,33
246,502	555,73
246,883	615,28
247,263	652,57
247,644	687,78
248,025	801,19
248,405	1005,75
248,786	1760,78
249,166	3637,5
249,547	7087,48
249,927	11989,53
250,308	18371,1
250,688	23885,25
251,069	28120,82
251,449	31194,31
251,83	32913,08
252,21	34296,28
252,59	35138,84
252,97	35981,39
253,351	37212,34
253,731	37834,29
254,111	38938,89
254,491	39696,51
254,871	40300,85
255,251	40879,3
255,631	41477,43
256,011	41799,02
256,391	42316,36
256,771	42142,36
257,151	41867,89
257,531	40680,44
257,911	38252,72
258,291	34204,62
258,67	28051,94
259,05	21155,62
259,43	14816,52
259,81	9456,16
260,189	4861,72
260,569	2055,45
260,948	1147,64
261,328	960,17
261,707	841,58
262,087	799,64
262,466	761,32
262,846	733,35
263,225	704,87
263,605	646,35
263,984	629,26
264,363	603,37
264,742	588,87
265,122	595,6
265,501	562,98
265,88	564,53
266,259	583,17
266,638	529,32
267,017	558,32
267,396	531,91
267,775	532,94
268,154	551,58
268,533	543,82
268,912	503,42
269,291	531,91
269,67	491,51
270,049	535,01
270,427	513,78
270,806	496,69
271,185	498,76
271,563	519,48
271,942	502,39
272,321	500,32
272,699	540,71
273,078	540,19
273,456	510,67
273,835	496,17
274,213	531,91
274,592	531,91
274,97	547,44
275,348	593,53
275,727	540,71
276,105	560,91
276,483	549,51
276,861	559,87
277,24	576,44
277,618	579,55
277,996	601,82
278,374	637,03
278,752	630,82
279,13	603,37
279,508	599,23
279,886	611,14
280,264	589,39
280,642	577,48
281,02	584,21
281,397	595,6
281,775	637,03
282,153	604,41
282,531	586,28
282,908	560,91
283,286	600,26
283,664	567,64
284,041	597,16
284,419	581,62
284,796	602,33
285,174	557,28
285,551	620,46
285,929	602,33
286,306	605,96
286,683	609,58
287,061	595,08
287,438	615,28
287,815	605,44
288,192	617,87
288,569	644,8
288,947	596,12
289,324	611,66
289,701	556,24
290,078	595,08
290,455	558,32
290,832	574,89
291,209	595,08
291,586	608,55
291,963	653,6
292,339	777,37
292,716	881,46
293,093	1008,85
293,47	1121,75
293,846	1205,12
294,223	1267,78
294,6	1254,32
294,976	1302,48
295,353	1318,53
295,729	1297,3
296,106	1281,25
296,482	1340,8
296,859	1313,87
297,235	1324,75
297,612	1393,62
297,988	1414,34
298,364	1407,09
298,741	1413,82
299,117	1390
299,493	1403,46
299,869	1407,6
300,245	1430,91
300,621	1331,48
300,997	1275,03
301,373	1118,12
301,749	1029,57
302,125	904,25
302,501	830,71
302,877	768,57
303,253	661,89
303,629	596,64
304,005	633,92
304,38	586,8
304,756	607,51
305,132	580,58
305,508	621,49
305,883	613,73
306,259	578,51
306,634	564,01
307,01	595,6
307,385	571,26
307,761	714,71
308,136	978,3
308,512	1493,05
308,887	2183,87
309,262	2950,3
309,637	3519,95
310,013	3976,7
310,388	4261
310,763	4462,45
311,138	4579,49
311,513	4646,81
311,888	4717,76
312,263	4778,35
312,638	4929,04
313,013	4868,97
313,388	4876,22
313,763	4876,74
314,138	4853,95
314,513	4787,15
314,888	4855,51
315,262	4778,86
315,637	4741,06
316,012	4721,9
316,386	4442,77
316,761	4134,65
317,136	3828,59
317,51	3262,57
317,885	2648,39
318,259	2084,45
318,634	1602,84
319,008	1162,14
319,382	805,85
319,757	593,01
320,131	490,99
320,505	462,51
320,88	432,99
321,254	431,44
321,628	420,57
322,002	427,82
322,376	386,91
322,75	417,98
323,124	408,66
323,498	426,78
323,872	389,49
324,246	378,1
324,62	388,46
324,994	420,05
325,368	400,37
325,741	411,24
326,115	402,96
326,489	368,78
326,862	379,66
327,236	384,32
327,61	371,37
327,983	419,53
328,357	382,76
328,73	405,03
329,104	386,91
329,477	391,57
329,851	420,57
330,224	457,33
330,597	463,03
330,97	471,83
331,344	480,64
331,717	535,01
332,09	509,12
332,463	536,57
332,836	532,94
333,209	472,87
333,582	554,17
333,955	535,01
334,328	521,55
334,701	544,85
335,074	521,03
335,447	530,87
335,82	533,98
336,193	560,91
336,565	506,01
336,938	492,03
337,311	523,62
337,683	495,66
338,056	487,89
338,429	497,73
338,801	473,91
339,174	472,35
339,546	420,57
339,918	432,48
340,291	444,39
340,663	402,96
341,036	395,19
341,408	401,41
341,78	405,55
342,152	415,91
342,524	406,07
342,897	393,64
343,269	389,49
343,641	398,82
344,013	398,3
344,385	403,99
344,757	421,08
345,129	387,42
345,501	394,67
345,872	430,92
346,244	400,89
346,616	412,8
346,988	442,32
347,359	417,46
347,731	421,6
348,103	438,69
348,474	401,92
348,846	403,48
349,217	450,6
349,589	446,98
349,96	443,35
350,332	436,1
350,703	451,64
351,074	465,62
351,446	457,85
351,817	477,53
352,188	485,3
352,559	501,35
352,931	486,33
353,302	504,98
353,673	512,74
354,044	469,76
354,415	509,64
354,786	540,71
355,157	512,23
355,528	533,46
355,898	561,42
356,269	559,35
356,64	545,89
357,011	582,14
357,382	574,37
357,752	619,42
358,123	610,1
358,493	672,25
358,864	680,53
359,235	700,21
359,605	736,46
359,976	905,28
360,346	1445,93
360,716	2264,14
361,087	3209,75
361,457	4276,54
361,827	5240,28
362,198	5933,69
362,568	6448,96
362,938	6786,08
363,308	6973,55
363,678	7015,49
364,048	7212,8
364,418	7191,57
364,788	7256,82
365,158	7268,21
365,528	7312,75
365,898	7280,64
366,268	7348,48
366,637	7303,42
367,007	7298,76
367,377	7316,37
367,747	7270,8
368,116	7241,8
368,486	7054,85
368,855	6591,37
369,225	6050,21
369,595	5428,78
369,964	4704,81
370,333	3900,58
370,703	3282,25
371,072	2745,23
371,441	2258,96
371,811	1917,69
372,18	1664,46
372,549	1503,41
372,918	1494,09
373,287	1393,62
373,656	1403,46
374,026	1414,34
374,395	1436,6
374,764	1477,52
375,132	1430,91
375,501	1505,48
375,87	1531,37
376,239	1568,66
376,608	1553,64
376,977	1586,27
377,345	1633,91
377,714	1630,8
378,083	1618,89
378,451	1711,59
378,82	1693,98
379,188	1673,78
379,557	1738
379,925	1767,52
380,294	1782,02
380,662	1839,5
381,03	1819,82
381,399	1840,02
381,767	1825,52
382,135	1845,71
382,503	1937,89
382,871	1988,12
383,24	1965,86
383,608	1966,89
383,976	1954,46
384,344	1971,03
384,712	1989,68
385,079	2063,21
385,447	2015,05
385,815	2014,53
386,183	2077,2
386,551	2078,75
386,918	2103,09
387,286	2097,91
387,654	2064,77
388,021	2103,09
388,389	2088,59
388,757	2141,93
389,124	2143,48
389,491	2135,2
389,859	2186,46
390,226	2148,14
390,594	2167,82
390,961	2209,77
391,328	2182,84
391,695	2220,12
392,063	2211,32
392,43	2193,71
392,797	2155,39
393,164	2194,75
393,531	2251,71
393,898	2223,75
394,265	2221,16
394,632	2222,2
394,999	2244,46
395,366	2250,68
395,732	2275,54
396,099	2225,3
396,466	2239,8
396,833	2223,75
397,199	2306,09
397,566	2285,89
397,932	2265,18
398,299	2265,7
398,665	2328,87
399,032	2341,3
399,398	2459,89
399,765	2911,98
400,131	3861,22
400,497	5123,24
400,864	6473,3
401,23	7574,26
401,596	8512,11
401,962	8951,25
402,328	9309,09
402,694	9457,2
403,06	9637,41
403,426	9586,66
403,792	9805,72
404,158	9874,59
404,524	9889,09
404,89	10008,2
405,256	9824,36
405,622	9890,13
405,987	9776,2
406,353	9792,25
406,719	9573,72
407,084	9636,89
407,45	9516,23
407,815	9349,48
408,181	8945,55
408,546	8491,91
408,912	7473,28
409,277	6365,58
409,642	5512,15
410,008	4716,2
410,373	4108,24
410,738	3661,84
411,103	3248,07
411,468	2880,39
411,834	2610,59
412,199	2340,79
412,564	2233,59
412,929	2153,84
413,294	2111,37
413,658	2078,75
414,023	2019,2
414,388	1971,55
414,753	1954,98
415,118	1978,28
415,482	1917,18
415,847	1914,07
416,212	1918,21
416,576	1897,5
416,941	1881,96
417,305	1853,48
417,67	1882,48
418,034	1839,5
418,399	1803,25
418,763	1821,37
419,127	1818,78
419,491	1815,16
419,856	1821,89
420,22	1745,77
420,584	1833,8
420,948	1782,53
421,312	1783,05
421,676	1680
422,04	1686,21
422,404	1695,53
422,768	1684,14
423,132	1669,12
423,496	1628,73
423,86	1653,59
424,223	1571,77
424,587	1644,27
424,951	1610,09
425,314	1601,28
425,678	1550,02
426,041	1561,41
426,405	1623,03
426,768	1595,07
427,132	1549,5
427,495	1541,21
427,859	1538,1
428,222	1568,66
428,585	1555,71
428,948	1579,02
429,312	1550,53
429,675	1587,3
430,038	1663,43
430,401	1860,21
430,764	2724
431,127	5054,88
431,49	9046,54
431,853	13084,8
432,216	17015,34
432,579	19929,85
432,941	22417,64
433,304	23732,49
433,667	24404,67
434,029	25188,19
434,392	25161,78
434,755	25237,38
435,117	25442,97
435,48	25228,58
435,842	25303,67
436,205	25567,78
436,567	25297,97
436,929	24933,92
437,292	24579,7
437,654	24875,92
438,016	24754,74
438,378	24168,52
438,74	23997,63
439,103	23434,72
439,465	22046,34
439,827	19639,85
440,189	16129,29
440,551	12692,78
440,913	9998,36
441,274	8040,34
441,636	6341,24
441,998	4987,56
442,36	3880,9
442,721	2875,22
443,083	2139,34
443,445	1571,77
443,806	1276,07
444,168	1174,05
444,529	1161,62
444,891	1117,6
445,252	1101,03
445,614	1087,05
445,975	1128,48
446,336	1097,92
446,697	1076,17
447,059	1071
447,42	1049,25
447,781	1031,64
448,142	984
448,503	953,96
448,864	1007,3
449,225	1020,76
449,586	981,41
449,947	968,98
450,308	969,5
450,668	941,01
451,029	971,57
451,39	957,59
451,751	949,3
452,111	956,03
452,472	952,92
452,832	923,92
453,193	902,69
453,553	885,6
453,914	914,09
454,274	894,92
454,634	892,34
454,995	898,55
455,355	825,53
455,715	883,53
456,075	862,82
456,436	853,5
456,796	855,05
457,156	844,69
457,516	833,3
457,876	825,53
458,236	830,71
458,596	822,42
458,955	845,21
459,315	823,98
459,675	822,42
460,035	793,94
460,394	830,19
460,754	798,08
461,114	777,89
461,473	751,48
461,833	779,44
462,192	801,71
462,552	779,96
462,911	793,94
463,27	799,64
463,63	804,82
463,989	810
464,348	750,44
464,707	772,71
465,066	774,78
465,425	776,33
465,785	745,26
466,144	777,89
466,503	778,41
466,861	771,16
467,22	771,67
467,579	781
467,938	745,26
468,297	745,78
468,655	745,26
469,014	760,28
469,373	771,67
469,731	750,96
470,09	732,32
470,448	767,01
470,807	757,69
471,165	752,51
471,524	752,51
471,882	787,21
472,24	733,87
472,599	777,89
472,957	739,57
473,315	740,08
473,673	771,16
474,031	754,07
474,389	718,85
474,747	786,69
475,105	759,76
475,463	782,03
475,821	776,33
476,179	742,16
476,537	753,55
476,894	755,1
477,252	785,14
477,61	774,26
477,967	780,48
478,325	767,53
478,683	778,92
479,04	776,85
479,398	780,48
479,755	802,23
480,112	750,96
480,47	762,35
480,827	789,28
481,184	769,08
481,541	776,85
481,899	746,82
482,256	738,01
482,613	749,41
482,97	776,85
483,327	770,12
483,684	784,62
484,041	759,76
484,397	794,46
484,754	756,14
485,111	732,83
485,468	748,89
485,824	730,25
486,181	763,39
486,538	800,67
486,894	763,39
487,251	770,12
487,607	760,8
487,964	787,21
488,32	846,76
488,676	774,26
489,033	819,83
489,389	808,44
489,745	821,39
490,101	801,19
490,457	808,44
490,814	805,85
491,17	823,46
491,526	814,14
491,882	785,14
492,237	813,1
492,593	791,35
492,949	770,64
493,305	784,62
493,661	759,25
494,016	789,28
494,372	808,96
494,728	818,8
495,083	778,41
495,439	758,21
495,794	744,23
496,15	757,69
496,505	750,44
496,86	729,21
497,216	703,32
497,571	741,64
497,926	702,8
498,281	700,21
498,637	705,39
498,992	738,01
499,347	730,25
499,702	724,03
500,057	678,98
500,412	726,62
500,766	739,05
501,121	678,46
501,476	684,16
501,831	673,8
502,185	681,57
502,54	723,51
502,895	711,6
503,249	706,94
503,604	699,69
503,958	671,73
504,313	700,21
504,667	702,28
505,022	731,8
505,376	701,25
505,73	676,39
506,084	691,92
506,438	680,53
506,793	682,08
507,147	658,78
507,501	711,08
507,855	673,28
508,209	652,57
508,563	642,21
508,917	676,91
509,27	685,71
509,624	685,19
509,978	680,01
510,332	687,26
510,685	678,98
511,039	666,03
511,392	693,48
511,746	677,94
512,099	676,91
512,453	698,66
512,806	668,62
513,16	687,26
513,513	686,23
513,866	708,5
514,219	723
514,572	681,57
514,926	686,75
515,279	685,71
515,632	699,17
515,985	691,92
516,338	675,35
516,69	707,46
517,043	675,87
517,396	704,35
517,749	672,76
518,102	704,87
518,454	741,64
518,807	725,58
519,16	691,41
519,512	673,8
519,865	707,98
520,217	677,94
520,569	675,35
520,922	709,01
521,274	692,96
521,626	715,23
521,979	700,73
522,331	675,87
522,683	674,83
523,035	688,82
523,387	664,48
523,739	699,69
524,091	700,73
524,443	667,58
524,795	694
525,147	652,05
525,499	694
525,85	675,35
526,202	669,14
526,554	676,39
526,905	689,33
527,257	685,19
527,608	700,73
527,96	699,69
528,311	696,58
528,663	666,03
529,014	701,76
529,365	652,57
529,717	675,87
530,068	654,12
530,419	678,46
530,77	673,28
531,121	706,42
531,472	669,14
531,823	652,57
532,174	660,33
532,525	683,12
532,876	695,03
533,227	688,3
533,577	710,57
533,928	688,3
534,279	683,64
534,629	659,82
534,98	688,82
535,33	687,78
535,681	700,21
536,031	667,58
536,382	693,48
536,732	679,5
537,082	686,23
537,433	721,44
537,783	759,76
538,133	747,85
538,483	712,12
538,833	764,94
539,183	764,94
539,533	812,07
539,883	846,76
540,233	896,48
540,583	957,07
540,933	1300,93
541,282	4358,36
541,632	12788,06
541,982	22598,89
542,331	30970,6
542,681	38766,44
543,031	44918,08
543,38	49748,15
543,729	53179,48
544,079	55420,77
544,428	57042,18
544,778	58014,72
545,127	57948,95
545,476	58520,67
545,825	58110,53
546,174	58741,8
546,523	57636,69
546,872	57583,35
547,221	57384,49
547,57	56998,17
547,919	56783,77
548,268	56159,75
548,617	55701,97
548,966	54396,96
549,314	53706,14
549,663	52538,89
550,012	47752,84
550,36	38677,37
550,709	30276,15
551,057	23881,63
551,406	19198,12
551,754	15436,39
552,102	12445,24
552,451	9948,65
552,799	7719,26
553,147	5926,96
553,495	4303,99
553,843	3017,63
554,191	1943,59
554,539	1264,16
554,887	931,69
555,235	789,28
555,583	783,58
555,931	743,71
556,279	741,64
556,626	729,73
556,974	753,03
557,322	742,67
557,669	729,73
558,017	694
558,364	704,87
558,712	696,58
559,059	726,62
559,407	688,82
559,754	721,44
560,101	660,85
560,449	721,44
560,796	695,55
561,143	680,01
561,49	672,76
561,837	708,5
562,184	678,46
562,531	681,05
562,878	709,53
563,225	665
563,572	676,91
563,918	662,41
564,265	678,98
564,612	690,37
564,958	654,12
565,305	671,73
565,651	703,32
565,998	703,32
566,344	670,17
566,691	662,92
567,037	639,62
567,383	701,76
567,73	714,71
568,076	696,58
568,422	646,35
568,768	689,85
569,114	694,51
569,46	670,69
569,806	696,58
570,152	659,82
570,498	698,14
570,844	688,3
571,19	697,1
571,535	678,98
571,881	761,83
572,227	1024,39
572,572	1912
572,918	2846,22
573,263	3731,24
573,609	4462,97
573,954	5160,01
574,3	5915,05
574,645	7162,05
574,99	8665,39
575,335	9875,63
575,68	10878,72
576,026	11753,38
576,371	12376,88
576,716	12761,65
577,061	13147,98
577,406	13367,03
577,75	13528,6
578,095	13449,89
578,44	13422,44
578,785	13447,3
579,13	13389,3
579,474	13231,35
579,819	13112,76
580,163	13070,3
580,508	12791,69
580,852	12462,85
581,197	11558,67
581,541	10420,41
581,885	9609,45
582,23	8962,64
582,574	8521,95
582,918	7794,35
583,262	6599,14
583,606	5323,13
583,95	4327,81
584,294	3528,24
584,638	2827,57
584,982	2370,82
585,326	1947,21
585,67	1661,87
586,014	1356,85
586,357	1158,51
586,701	972,09
587,044	884,57
587,388	762,35
587,732	681,05
588,075	685,71
588,418	633,41
588,762	622,53
589,105	629,78
589,448	622,53
589,792	594,05
590,135	598,71
590,478	614,76
590,821	626,67
591,164	617,87
591,507	643,25
591,85	599,23
592,193	600,78
592,536	604,41
592,878	597,16
593,221	605,44
593,564	558,83
593,907	584,21
594,249	596,64
594,592	608,03
594,934	591,98
595,277	591,46
595,619	551,07
595,961	628,75
596,304	605,96
596,646	584,73
596,988	590,94
597,33	573,33
597,672	574,89
598,014	580,07
598,357	575,92
598,698	579,55
599,04	587,32
599,382	646,35
599,724	564,53
600,066	589,91
600,408	575,92
600,749	590,42
601,091	607,51
601,432	578,51
601,774	582,66
602,116	587,83
602,457	570,74
602,798	551,58
603,14	609,07
603,481	581,1
603,822	587,32
604,163	595,6
604,505	568,16
604,846	565,57
605,187	579,03
605,528	562,98
605,869	542,26
606,21	586,8
606,55	574,37
606,891	591,98
607,232	545,37
607,573	565,57
607,913	556,76
608,254	576,44
608,594	556,24
608,935	567,12
609,275	582,66
609,616	540,19
609,956	586,28
610,297	550,03
610,637	531,39
610,977	568,67
611,317	531,91
611,657	559,35
611,997	570,74
612,337	575,41
612,677	526,73
613,017	508,6
613,357	522,58
613,697	555,21
614,037	560,39
614,377	528,8
614,716	546,41
615,056	535,53
615,395	534,49
615,735	546,92
616,074	536,57
616,414	546,92
616,753	525,69
617,093	521,03
617,432	514,82
617,771	527,76
618,11	548,48
618,449	535,01
618,789	525,69
619,128	507,05
619,467	539,67
619,805	535,01
620,144	500,32
620,483	524,14
620,822	518,44
621,161	530,35
621,499	499,8
621,838	519,99
622,177	524,14
622,515	519,99
622,854	531,91
623,192	497,21
623,531	524,14
623,869	511,19
624,207	511,19
624,545	516,89
624,884	539,16
625,222	508,08
625,56	488,41
625,898	511,71
626,236	521,03
626,574	501,35
626,912	490,99
627,25	486,33
627,587	509,64
627,925	519,99
628,263	497,21
628,6	495,66
628,938	517,92
629,276	483,23
629,613	534,49
629,951	491,51
630,288	524,66
630,625	505,49
630,963	479,6
631,3	504,46
631,637	461,99
631,974	512,23
632,311	464,07
632,648	525,69
632,985	471,83
633,322	495,14
633,659	506,01
633,996	493,07
634,333	471,32
634,67	496,17
635,006	506,01
635,343	470,8
635,68	486,85
636,016	513,78
636,353	491,51
636,689	472,87
637,025	466,66
637,362	499,8
637,698	471,83
638,034	468,73
638,371	476,49
638,707	477,53
639,043	467,69
639,379	494,62
639,715	499,28
640,051	460,96
640,387	468,21
640,723	446,98
641,058	475,98
641,394	441,28
641,73	487,37
642,065	481,16
642,401	455,26
642,736	448,53
643,072	457,85
643,407	451,64
643,743	463,03
644,078	480,12
644,413	447,49
644,749	482,19
645,084	458,37
645,419	445,94
645,754	431,44
646,089	456,3
646,424	453,71
646,759	437,14
647,094	431,96
647,429	423,67
647,764	463,03
648,098	479,08
648,433	454,74
648,768	488,92
649,102	449,05
649,437	455,78
649,771	427,82
650,106	424,19
650,44	452,16
650,774	470,28
651,108	442,32
651,443	437,14
651,777	454,23
652,111	451,12
652,445	443,35
652,779	401,41
653,113	415,39
653,447	409,69
653,781	472,35
654,115	436,1
654,448	446,98
654,782	409,17
655,116	450,08
655,449	445,94
655,783	432,48
656,116	424,19
656,45	431,44
656,783	439,73
657,117	435,07
657,45	416,42
657,783	437,14
658,116	432,48
658,449	455,78
658,783	413,32
659,116	452,16
659,449	425,74
659,782	417,98
660,114	444,91
660,447	416,42
660,78	424,71
661,113	401,92
661,445	405,03
661,778	413,83
662,111	441,28
662,443	416,42
662,776	390,53
663,108	402,96
663,44	457,85
663,773	429,89
664,105	430,92
664,437	441,8
664,769	427,82
665,102	412,28
665,434	394,67
665,766	437,14
666,098	403,48
666,429	412,28
666,761	442,83
667,093	432,99
667,425	423,16
667,757	406,58
668,088	424,19
668,42	438,69
668,751	436,62
669,083	407,62
669,414	450,6
669,746	438,69
670,077	405,03
670,408	390,53
670,739	387,42
671,071	394,67
671,402	388,46
671,733	419,53
672,064	406,07
672,395	417,46
672,726	429,89
673,057	422,64
673,387	414,87
673,718	402,44
674,049	399,33
674,38	384,32
674,71	411,24
675,041	375,51
675,371	419,53
675,702	410,21
676,032	394,67
676,362	437,14
676,693	386,91
677,023	395,19
677,353	395,19
677,683	391,05
678,013	362,05
678,343	400,89
678,673	390,01
679,003	374,48
679,333	399,85
679,663	395,71
679,993	397,26
680,322	372,41
680,652	377,07
680,982	396,23
681,311	376,03
681,641	424,19
681,97	415,39
682,3	383,28
682,629	394,16
682,958	352,21
683,287	361,53
683,617	400,37
683,946	388,46
684,275	365,16
684,604	382,24
684,933	374,99
685,262	399,85
685,591	390,01
685,919	364,12
686,248	400,89
686,577	370,85
686,906	365,67
687,234	393,12
687,563	405,03
687,891	383,28
688,22	403,48
688,548	379,66
688,876	386,39
689,205	405,03
689,533	411,24
689,861	393,64
690,189	415,39
690,517	381,73
690,845	389,49
691,173	369,82
691,501	439,73
691,829	411,76
692,157	415,91
692,485	450,6
692,812	484,26
693,14	501,87
693,468	518,96
693,795	533,46
694,123	560,39
694,45	515,33
694,778	577,48
695,105	594,05
695,432	558,83
695,759	571,78
696,087	581,62
696,414	567,12
696,741	566,6
697,068	594,57
697,395	573,85
697,722	582,66
698,048	566,6
698,375	543,3
698,702	564,53
699,029	547,44
699,355	541,74
699,682	529,83
700,008	543,3
700,335	535,01
700,661	507,57
700,988	486,33
701,314	444,91
701,64	429,89
701,966	430,41
702,293	419,01
702,619	408,66
702,945	415,91
703,271	373,44
703,597	396,74
703,923	372,92
704,248	406,07
704,574	381,73
704,9	400,89
705,226	405,03
705,551	364,12
705,877	394,16
706,202	407,62
706,528	404,51
706,853	421,08
707,179	387,94
707,504	408,14
707,829	408,14
708,154	426,26
708,479	408,66
708,804	406,07
709,129	401,92
709,454	425,23
709,779	377,58
710,104	381,73
710,429	386,91
710,754	375,51
711,078	382,76
711,403	391,05
711,728	398,82
712,052	400,89
712,377	341,33
712,701	364,64
713,026	366,71
713,35	379,14
713,674	363,6
713,998	377,07
714,322	341,85
714,647	363,6
714,971	332,53
715,295	354,28
715,619	370,85
715,942	349,1
716,266	319,58
716,59	353,76
716,914	341,85
717,237	353,76
717,561	376,03
717,885	376,55
718,208	365,67
718,532	357,9
718,855	328,9
719,178	364,64
719,502	354,28
719,825	357,39
720,148	344,44
720,471	351,69
720,794	376,03
721,117	349,1
721,44	344,44
721,763	339,26
722,086	358,42
722,409	333,57
722,731	333,05
723,054	327,35
723,377	361,53
723,699	385,35
724,022	365,67
724,344	373,96
724,667	381,21
724,989	354,8
725,311	374,99
725,634	371,89
725,956	412,28
726,278	386,91
726,6	402,44
726,922	379,14
727,244	380,17
727,566	383,8
727,888	399,33
728,21	369,82
728,531	385,35
728,853	400,37
729,175	380,17
729,496	392,6
729,818	356,35
730,139	384,83
730,461	385,35
730,782	374,48
731,103	373,96
731,425	362,57
731,746	379,66
732,067	372,41
732,388	341,85
732,709	343,92
733,03	338,23
733,351	321,65
733,672	310,78
733,993	379,14
734,313	344,44
734,634	378,62
734,955	396,74
735,275	391,57
735,596	379,66
735,916	380,69
736,237	391,57
736,557	401,41
736,877	398,82
737,198	391,57
737,518	425,74
737,838	399,33
738,158	398,82
738,478	411,24
738,798	409,17
739,118	413,32
739,438	381,73
739,758	405,55
740,078	411,24
740,397	388,98
740,717	391,05
741,036	376,55
741,356	363,6
741,675	390,53
741,995	400,37
742,314	387,42
742,634	371,89
742,953	366,71
743,272	384,32
743,591	372,41
743,91	350,65
744,229	329,94
744,548	343,4
744,867	311,3
745,186	363,6
745,505	333,57
745,824	342,89
746,142	377,58
746,461	361,53
746,78	391,05
747,098	443,35
747,417	446,98
747,735	442,83
748,053	484,78
748,372	466,14
748,69	510,67
749,008	489,44
749,326	497,73
749,644	463,55
749,962	512,74
750,28	515,85
750,598	536,05
750,916	533,46
751,234	539,67
751,552	498,76
751,869	529,32
752,187	511,19
752,504	535,01
752,822	507,05
753,139	499,8
753,457	497,21
753,774	544,85
754,091	494,1
754,409	473,39
754,726	470,8
755,043	426,78
755,36	399,85
755,677	434,55
755,994	344,96
756,311	353,76
756,628	326,83
756,944	342,89
757,261	340,3
757,578	309,23
757,894	334,08
758,211	346,51
758,528	285,4
758,844	350,14
759,16	363,08
759,477	430,41
759,793	474,42
760,109	497,73
760,425	546,92
760,741	580,07
761,057	586,28
761,373	600,78
761,689	615,28
762,005	617,87
762,321	641,17
762,637	663,96
762,953	658,26
763,268	650,5
763,584	668,1
763,899	673,28
764,215	662,41
764,53	627,19
764,846	656,19
765,161	661,89
765,476	658,26
765,791	655,16
766,106	638,07
766,421	630,3
766,736	629,26
767,051	619,94
767,366	611,66
767,681	574,37
767,996	542,26
768,311	494,62
768,625	461,48
768,94	458,37
769,255	461,48
769,569	446,46
769,883	463,03
770,198	489,96
770,512	450,6
770,826	490,48
771,141	471,32
771,455	487,37
771,769	523,1
772,083	533,46
772,397	469,24
772,711	496,69
773,025	510,67
773,339	480,12
773,652	501,87
773,966	509,12
774,28	499,8
774,593	492,55
774,907	494,1
775,22	478,05
775,534	497,73
775,847	482,71
776,16	448,53
776,474	436,62
776,787	435,07
777,1	389,49
777,413	371,37
777,726	341,85
778,039	342,37
778,352	315,96
778,665	288,51
778,977	345,99
779,29	329,94
779,603	322,69
779,915	313,89
780,228	329,94
780,54	324,24
780,853	324,76
781,165	333,05
781,477	327,35
781,79	334,08
782,102	340,3
782,414	300,42
782,726	295,76
783,038	285,4
783,35	337,71
783,662	314,4
783,974	291,1
784,286	327,87
784,597	298,35
784,909	323,73
785,221	327,87
785,532	318,03
785,844	323,21
786,155	316,48
786,467	299,39
786,778	328,39
787,089	305,08
787,4	306,12
787,712	325,28
788,023	307,15
788,334	319,07
788,645	347,03
788,956	285,4
789,266	341,85
789,577	351,69
789,888	308,19
790,199	290,58
790,509	316,99
790,82	347,55
791,13	329,94
791,441	358,42
791,751	326,32
792,061	341,85
792,372	333,57
792,682	381,73
792,992	362,57
793,302	360,49
793,612	358,94
793,922	400,37
794,232	378,1
794,542	359,98
794,852	364,12
795,162	370,85
795,471	356,87
795,781	371,89
796,09	353,24
796,4	369,82
796,709	388,98
797,019	408,66
797,328	378,1
797,637	419,53
797,947	395,19
798,256	394,16
798,565	391,57
798,874	387,42
799,183	394,16
799,492	382,24
799,801	374,99
800,109	393,64
800,418	421,08
800,727	393,12
801,036	384,83
801,344	403,48
801,653	357,39
801,961	396,23
802,269	403,99
802,578	395,19
802,886	427,82
803,194	402,96
803,502	393,64
803,811	402,96
804,119	413,83
804,427	409,17
804,734	351,17
805,042	352,21
805,35	376,03
805,658	369,82
805,966	343,4
806,273	339,26
806,581	319,07
806,888	360,49
807,196	390,01
807,503	383,28
807,81	367,23
808,118	411,76
808,425	413,83
808,732	432,48
809,039	410,73
809,346	445,94
809,653	423,16
809,96	456,82
810,267	452,16
810,574	460,96
810,88	479,6
811,187	438,69
811,494	451,12
811,8	480,12
812,107	470,8
812,413	464,58
812,719	463,55
813,026	472,35
813,332	446,46
813,638	437,14
813,944	411,76
814,25	445,94
814,556	437,66
814,862	437,66
815,168	388,46
815,474	386,39
815,78	394,16
816,086	380,17
816,391	356,35
816,697	343,4
817,002	309,23
817,308	296,8
817,613	301,46
817,919	304,57
818,224	319,58
818,529	325,28
818,834	301,46
819,139	303,01
819,444	276,6
819,749	325,8
820,054	303,53
820,359	327,87
820,664	306,12
820,969	299,9
821,274	319,58
821,578	320,1
821,883	348,07
822,187	346,51
822,492	342,89
822,796	314,4
823,1	350,14
823,405	366,71
823,709	367,23
824,013	360,49
824,317	391,05
824,621	378,62
824,925	371,89
825,229	363,6
825,533	367,74
825,837	401,92
826,14	387,94
826,444	400,37
826,748	384,32
827,051	386,39
827,355	387,42
827,658	398,3
827,961	427,3
828,265	386,91
828,568	401,92
828,871	394,67
829,174	389,49
829,477	400,37
829,78	381,73
830,083	390,53
830,386	398,3
830,689	360,49
830,992	355,83
831,294	323,73
831,597	361,01
831,9	299,9
832,202	322,69
832,505	301,46
832,807	320,1
833,109	328,9
833,412	312,85
833,714	318,55
834,016	325,8
834,318	319,58
834,62	306,12
834,922	346,51
835,224	300,42
835,526	305,08
835,828	287,48
836,129	255,37
836,431	282,3
836,733	304,57
837,034	358,42
837,336	292,65
837,637	298,87
837,938	304,05
838,24	336,15
838,541	351,17
838,842	336,67
839,143	347,03
839,444	360,49
839,745	369,3
840,046	379,14
840,347	336,67
840,648	366,19
840,949	390,01
841,249	374,48
841,55	374,48
841,85	360,49
842,151	348,07
842,451	383,28
842,752	365,16
843,052	367,74
843,352	378,62
843,653	386,91
843,953	367,74
844,253	392,6
844,553	370,33
844,853	360,49
845,153	383,8
845,452	341,33
845,752	322,69
846,052	353,76
846,352	350,14
846,651	344,96
846,951	333,57
847,25	334,6
847,549	300,42
847,849	342,89
848,148	312,85
848,447	346,51
848,746	342,89
849,045	347,03
849,345	320,1
849,643	289,03
849,942	481,16
850,241	342,89
850,54	325,28
850,839	293,69
851,137	316,48
851,436	341,33
851,734	332,53
852,033	344,44
852,331	303,01
852,63	327,35
852,928	299,9
853,226	336,67
853,524	311,3
853,822	311,82
854,12	318,03
854,418	318,03
854,716	321,65
855,014	316,48
855,312	332,01
855,61	315,96
855,907	357,39
856,205	296,8
856,502	316,99
856,8	294,73
857,097	300,94
857,395	308,71
857,692	295,76
857,989	312,33
858,286	297,83
858,583	284,89
858,88	287,99
859,177	332,01
859,474	331,49
859,771	311,3
860,068	320,1
860,365	328,39
860,661	304,57
860,958	282,82
861,255	291,1
861,551	308,19
861,847	326,83
862,144	345,99
862,44	304,05
862,736	298,87
863,032	282,3
863,329	313,89
863,625	290,07
863,921	333,05
864,216	326,83
864,512	333,05
864,808	330,98
865,104	313,37
865,399	307,67
865,695	310,26
865,991	296,28
866,286	339,26
866,581	313,89
866,877	328,9
867,172	330,98
867,467	324,76
867,762	303,01
868,058	262,62
868,353	306,12
868,648	313,89
868,942	313,37
869,237	326,83
869,532	301,98
869,827	301,46
870,121	298,87
870,416	305,08
870,711	281,78
871,005	313,89
871,299	292,65
871,594	311,82
871,888	304,05
872,182	304,57
872,476	294,73
872,771	284,89
873,065	312,85
873,359	293,17
873,652	328,39
873,946	276,08
874,24	287,99
874,534	314,92
874,827	309,74
875,121	333,57
875,414	306,64
875,708	303,53
876,001	332,53
876,295	311,82
876,588	308,19
876,881	326,32
877,174	294,21
877,467	326,32
877,76	292,14
878,053	305,6
878,346	291,1
878,639	291,1
878,932	291,1
